wavenumber,n
1000,3.47727
1002.81,3.47727
1005.63,3.47727
1008.44,3.47728
1011.25,3.47728
1014.07,3.47728
1016.88,3.47728
1019.69,3.47728
1022.51,3.47728
1025.32,3.47728
1028.14,3.47728
1030.95,3.47728
1033.76,3.47728
1036.58,3.47728
1039.39,3.47728
1042.2,3.47728
1045.02,3.47729
1047.83,3.47729
1050.64,3.47729
1053.46,3.47729
1056.27,3.47729
1059.08,3.47729
1061.9,3.47729
1064.71,3.47729
1067.52,3.47729
1070.34,3.47729
1073.15,3.47729
1075.96,3.47729
1078.78,3.47729
1081.59,3.47729
1084.41,3.47729
1087.22,3.47729
1090.03,3.4773
1092.85,3.4773
1095.66,3.4773
1098.47,3.4773
1101.29,3.4773
1104.1,3.4773
1106.91,3.4773
1109.73,3.4773
1112.54,3.4773
1115.35,3.4773
1118.17,3.4773
1120.98,3.4773
1123.79,3.4773
1126.61,3.4773
1129.42,3.4773
1132.23,3.4773
1135.05,3.4773
1137.86,3.47731
1140.68,3.47731
1143.49,3.47731
1146.3,3.47731
1149.12,3.47731
1151.93,3.47731
1154.74,3.47731
1157.56,3.47731
1160.37,3.47731
1163.18,3.47731
1166,3.47731
1168.81,3.47731
1171.62,3.47731
1174.44,3.47731
1177.25,3.47731
1180.06,3.47731
1182.88,3.47731
1185.69,3.47731
1188.5,3.47732
1191.32,3.47732
1194.13,3.47732
1196.95,3.47732
1199.76,3.47732
1202.57,3.47732
1205.39,3.47732
1208.2,3.47732
1211.01,3.47732
1213.83,3.47732
1216.64,3.47732
1219.45,3.47732
1222.27,3.47732
1225.08,3.47732
1227.89,3.47732
1230.71,3.47732
1233.52,3.47732
1236.33,3.47732
1239.15,3.47733
1241.96,3.47733
1244.77,3.47733
1247.59,3.47733
1250.4,3.47733
1253.22,3.47733
1256.03,3.47733
1258.84,3.47733
1261.66,3.47733
1264.47,3.47733
1267.28,3.47733
1270.1,3.47733
1272.91,3.47733
1275.72,3.47733
1278.54,3.47733
1281.35,3.47733
1284.16,3.47733
1286.98,3.47733
1289.79,3.47734
1292.6,3.47734
1295.42,3.47734
1298.23,3.47734
1301.05,3.47734
1303.86,3.47734
1306.67,3.47734
1309.49,3.47734
1312.3,3.47734
1315.11,3.47734
1317.93,3.47734
1320.74,3.47734
1323.55,3.47734
1326.37,3.47734
1329.18,3.47734
1331.99,3.47734
1334.81,3.47734
1337.62,3.47735
1340.43,3.47735
1343.25,3.47735
1346.06,3.47735
1348.87,3.47735
1351.69,3.47735
1354.5,3.47735
1357.32,3.47735
1360.13,3.47735
1362.94,3.47735
1365.76,3.47735
1368.57,3.47735
1371.38,3.47735
1374.2,3.47735
1377.01,3.47735
1379.82,3.47735
1382.64,3.47735
1385.45,3.47736
1388.26,3.47736
1391.08,3.47736
1393.89,3.47736
1396.7,3.47736
1399.52,3.47736
1402.33,3.47736
1405.14,3.47736
1407.96,3.47736
1410.77,3.47736
1413.59,3.47736
1416.4,3.47736
1419.21,3.47736
1422.03,3.47736
1424.84,3.47736
1427.65,3.47736
1430.47,3.47736
1433.28,3.47737
1436.09,3.47737
1438.91,3.47737
1441.72,3.47737
1444.53,3.47737
1447.35,3.47737
1450.16,3.47737
1452.97,3.47737
1455.79,3.47737
1458.6,3.47737
1461.41,3.47737
1464.23,3.47737
1467.04,3.47737
1469.86,3.47737
1472.67,3.47737
1475.48,3.47737
1478.3,3.47738
1481.11,3.47738
1483.92,3.47738
1486.74,3.47738
1489.55,3.47738
1492.36,3.47738
1495.18,3.47738
1497.99,3.47738
1500.8,3.47738
1503.62,3.47738
1506.43,3.47738
1509.24,3.47738
1512.06,3.47738
1514.87,3.47738
1517.68,3.47738
1520.5,3.47738
1523.31,3.47739
1526.13,3.47739
1528.94,3.47739
1531.75,3.47739
1534.57,3.47739
1537.38,3.47739
1540.19,3.47739
1543.01,3.47739
1545.82,3.47739
1548.63,3.47739
1551.45,3.47739
1554.26,3.47739
1557.07,3.47739
1559.89,3.47739
1562.7,3.47739
1565.51,3.4774
1568.33,3.4774
1571.14,3.4774
1573.95,3.4774
1576.77,3.4774
1579.58,3.4774
1582.4,3.4774
1585.21,3.4774
1588.02,3.4774
1590.84,3.4774
1593.65,3.4774
1596.46,3.4774
1599.28,3.4774
1602.09,3.4774
1604.9,3.4774
1607.72,3.47741
1610.53,3.47741
1613.34,3.47741
1616.16,3.47741
1618.97,3.47741
1621.78,3.47741
1624.6,3.47741
1627.41,3.47741
1630.23,3.47741
1633.04,3.47741
1635.85,3.47741
1638.67,3.47741
1641.48,3.47741
1644.29,3.47741
1647.11,3.47741
1649.92,3.47742
1652.73,3.47742
1655.55,3.47742
1658.36,3.47742
1661.17,3.47742
1663.99,3.47742
1666.8,3.47742
1669.61,3.47742
1672.43,3.47742
1675.24,3.47742
1678.05,3.47742
1680.87,3.47742
1683.68,3.47742
1686.5,3.47742
1689.31,3.47743
1692.12,3.47743
1694.94,3.47743
1697.75,3.47743
1700.56,3.47743
1703.38,3.47743
1706.19,3.47743
1709,3.47743
1711.82,3.47743
1714.63,3.47743
1717.44,3.47743
1720.26,3.47743
1723.07,3.47743
1725.88,3.47743
1728.7,3.47744
1731.51,3.47744
1734.32,3.47744
1737.14,3.47744
1739.95,3.47744
1742.77,3.47744
1745.58,3.47744
1748.39,3.47744
1751.21,3.47744
1754.02,3.47744
1756.83,3.47744
1759.65,3.47744
1762.46,3.47744
1765.27,3.47744
1768.09,3.47745
1770.9,3.47745
1773.71,3.47745
1776.53,3.47745
1779.34,3.47745
1782.15,3.47745
1784.97,3.47745
1787.78,3.47745
1790.59,3.47745
1793.41,3.47745
1796.22,3.47745
1799.04,3.47745
1801.85,3.47745
1804.66,3.47746
1807.48,3.47746
1810.29,3.47746
1813.1,3.47746
1815.92,3.47746
1818.73,3.47746
1821.54,3.47746
1824.36,3.47746
1827.17,3.47746
1829.98,3.47746
1832.8,3.47746
1835.61,3.47746
1838.42,3.47746
1841.24,3.47747
1844.05,3.47747
1846.86,3.47747
1849.68,3.47747
1852.49,3.47747
1855.31,3.47747
1858.12,3.47747
1860.93,3.47747
1863.75,3.47747
1866.56,3.47747
1869.37,3.47747
1872.19,3.47747
1875,3.47747
1877.81,3.47748
1880.63,3.47748
1883.44,3.47748
1886.25,3.47748
1889.07,3.47748
1891.88,3.47748
1894.69,3.47748
1897.51,3.47748
1900.32,3.47748
1903.14,3.47748
1905.95,3.47748
1908.76,3.47748
1911.58,3.47748
1914.39,3.47749
1917.2,3.47749
1920.02,3.47749
1922.83,3.47749
1925.64,3.47749
1928.46,3.47749
1931.27,3.47749
1934.08,3.47749
1936.9,3.47749
1939.71,3.47749
1942.52,3.47749
1945.34,3.47749
1948.15,3.4775
1950.96,3.4775
1953.78,3.4775
1956.59,3.4775
1959.41,3.4775
1962.22,3.4775
1965.03,3.4775
1967.85,3.4775
1970.66,3.4775
1973.47,3.4775
1976.29,3.4775
1979.1,3.4775
1981.91,3.47751
1984.73,3.47751
1987.54,3.47751
1990.35,3.47751
1993.17,3.47751
1995.98,3.47751
1998.79,3.47751
2001.61,3.47751
2004.42,3.47751
2007.23,3.47751
2010.05,3.47751
2012.86,3.47751
2015.68,3.47752
2018.49,3.47752
2021.3,3.47752
2024.12,3.47752
2026.93,3.47752
2029.74,3.47752
2032.56,3.47752
2035.37,3.47752
2038.18,3.47752
2041,3.47752
2043.81,3.47752
2046.62,3.47752
2049.44,3.47753
2052.25,3.47753
2055.06,3.47753
2057.88,3.47753
2060.69,3.47753
2063.5,3.47753
2066.32,3.47753
2069.13,3.47753
2071.95,3.47753
2074.76,3.47753
2077.57,3.47753
2080.39,3.47753
2083.2,3.47754
2086.01,3.47754
2088.83,3.47754
2091.64,3.47754
2094.45,3.47754
2097.27,3.47754
2100.08,3.47754
2102.89,3.47754
2105.71,3.47754
2108.52,3.47754
2111.33,3.47754
2114.15,3.47755
2116.96,3.47755
2119.77,3.47755
2122.59,3.47755
2125.4,3.47755
2128.22,3.47755
2131.03,3.47755
2133.84,3.47755
2136.66,3.47755
2139.47,3.47755
2142.28,3.47755
2145.1,3.47756
2147.91,3.47756
2150.72,3.47756
2153.54,3.47756
2156.35,3.47756
2159.16,3.47756
2161.98,3.47756
2164.79,3.47756
2167.6,3.47756
2170.42,3.47756
2173.23,3.47756
2176.05,3.47757
2178.86,3.47757
2181.67,3.47757
2184.49,3.47757
2187.3,3.47757
2190.11,3.47757
2192.93,3.47757
2195.74,3.47757
2198.55,3.47757
2201.37,3.47757
2204.18,3.47757
2206.99,3.47758
2209.81,3.47758
2212.62,3.47758
2215.43,3.47758
2218.25,3.47758
2221.06,3.47758
2223.87,3.47758
2226.69,3.47758
2229.5,3.47758
2232.32,3.47758
2235.13,3.47758
2237.94,3.47759
2240.76,3.47759
2243.57,3.47759
2246.38,3.47759
2249.2,3.47759
2252.01,3.47759
2254.82,3.47759
2257.64,3.47759
2260.45,3.47759
2263.26,3.47759
2266.08,3.4776
2268.89,3.4776
2271.7,3.4776
2274.52,3.4776
2277.33,3.4776
2280.14,3.4776
2282.96,3.4776
2285.77,3.4776
2288.59,3.4776
2291.4,3.4776
2294.21,3.4776
2297.03,3.47761
2299.84,3.47761
2302.65,3.47761
2305.47,3.47761
2308.28,3.47761
2311.09,3.47761
2313.91,3.47761
2316.72,3.47761
2319.53,3.47761
2322.35,3.47761
2325.16,3.47762
2327.97,3.47762
2330.79,3.47762
2333.6,3.47762
2336.41,3.47762
2339.23,3.47762
2342.04,3.47762
2344.86,3.47762
2347.67,3.47762
2350.48,3.47762
2353.3,3.47763
2356.11,3.47763
2358.92,3.47763
2361.74,3.47763
2364.55,3.47763
2367.36,3.47763
2370.18,3.47763
2372.99,3.47763
2375.8,3.47763
2378.62,3.47763
2381.43,3.47764
2384.24,3.47764
2387.06,3.47764
2389.87,3.47764
2392.68,3.47764
2395.5,3.47764
2398.31,3.47764
2401.13,3.47764
2403.94,3.47764
2406.75,3.47764
2409.57,3.47765
2412.38,3.47765
2415.19,3.47765
2418.01,3.47765
2420.82,3.47765
2423.63,3.47765
2426.45,3.47765
2429.26,3.47765
2432.07,3.47765
2434.89,3.47765
2437.7,3.47766
2440.51,3.47766
2443.33,3.47766
2446.14,3.47766
2448.95,3.47766
2451.77,3.47766
2454.58,3.47766
2457.4,3.47766
2460.21,3.47766
2463.02,3.47766
2465.84,3.47767
2468.65,3.47767
2471.46,3.47767
2474.28,3.47767
2477.09,3.47767
2479.9,3.47767
2482.72,3.47767
2485.53,3.47767
2488.34,3.47767
2491.16,3.47768
2493.97,3.47768
2496.78,3.47768
2499.6,3.47768
2502.41,3.47768
2505.23,3.47768
2508.04,3.47768
2510.85,3.47768
2513.67,3.47768
2516.48,3.47768
2519.29,3.47769
2522.11,3.47769
2524.92,3.47769
2527.73,3.47769
2530.55,3.47769
2533.36,3.47769
2536.17,3.47769
2538.99,3.47769
2541.8,3.47769
2544.61,3.4777
2547.43,3.4777
2550.24,3.4777
2553.05,3.4777
2555.87,3.4777
2558.68,3.4777
2561.5,3.4777
2564.31,3.4777
2567.12,3.4777
2569.94,3.47771
2572.75,3.47771
2575.56,3.47771
2578.38,3.47771
2581.19,3.47771
2584,3.47771
2586.82,3.47771
2589.63,3.47771
2592.44,3.47771
2595.26,3.47772
2598.07,3.47772
2600.88,3.47772
2603.7,3.47772
2606.51,3.47772
2609.32,3.47772
2612.14,3.47772
2614.95,3.47772
2617.77,3.47772
2620.58,3.47773
2623.39,3.47773
2626.21,3.47773
2629.02,3.47773
2631.83,3.47773
2634.65,3.47773
2637.46,3.47773
2640.27,3.47773
2643.09,3.47773
2645.9,3.47774
2648.71,3.47774
2651.53,3.47774
2654.34,3.47774
2657.15,3.47774
2659.97,3.47774
2662.78,3.47774
2665.59,3.47774
2668.41,3.47774
2671.22,3.47775
2674.04,3.47775
2676.85,3.47775
2679.66,3.47775
2682.48,3.47775
2685.29,3.47775
2688.1,3.47775
2690.92,3.47775
2693.73,3.47775
2696.54,3.47776
2699.36,3.47776
2702.17,3.47776
2704.98,3.47776
2707.8,3.47776
2710.61,3.47776
2713.42,3.47776
2716.24,3.47776
2719.05,3.47776
2721.86,3.47777
2724.68,3.47777
2727.49,3.47777
2730.31,3.47777
2733.12,3.47777
2735.93,3.47777
2738.75,3.47777
2741.56,3.47777
2744.37,3.47778
2747.19,3.47778
2750,3.47778
2752.81,3.47778
2755.63,3.47778
2758.44,3.47778
2761.25,3.47778
2764.07,3.47778
2766.88,3.47778
2769.69,3.47779
2772.51,3.47779
2775.32,3.47779
2778.14,3.47779
2780.95,3.47779
2783.76,3.47779
2786.58,3.47779
2789.39,3.47779
2792.2,3.4778
2795.02,3.4778
2797.83,3.4778
2800.64,3.4778
2803.46,3.4778
2806.27,3.4778
2809.08,3.4778
2811.9,3.4778
2814.71,3.4778
2817.52,3.47781
2820.34,3.47781
2823.15,3.47781
2825.96,3.47781
2828.78,3.47781
2831.59,3.47781
2834.41,3.47781
2837.22,3.47781
2840.03,3.47782
2842.85,3.47782
2845.66,3.47782
2848.47,3.47782
2851.29,3.47782
2854.1,3.47782
2856.91,3.47782
2859.73,3.47782
2862.54,3.47783
2865.35,3.47783
2868.17,3.47783
2870.98,3.47783
2873.79,3.47783
2876.61,3.47783
2879.42,3.47783
2882.23,3.47783
2885.05,3.47783
2887.86,3.47784
2890.68,3.47784
2893.49,3.47784
2896.3,3.47784
2899.12,3.47784
2901.93,3.47784
2904.74,3.47784
2907.56,3.47784
2910.37,3.47785
2913.18,3.47785
2916,3.47785
2918.81,3.47785
2921.62,3.47785
2924.44,3.47785
2927.25,3.47785
2930.06,3.47785
2932.88,3.47786
2935.69,3.47786
2938.5,3.47786
2941.32,3.47786
2944.13,3.47786
2946.95,3.47786
2949.76,3.47786
2952.57,3.47786
2955.39,3.47787
2958.2,3.47787
2961.01,3.47787
2963.83,3.47787
2966.64,3.47787
2969.45,3.47787
2972.27,3.47787
2975.08,3.47788
2977.89,3.47788
2980.71,3.47788
2983.52,3.47788
2986.33,3.47788
2989.15,3.47788
2991.96,3.47788
2994.77,3.47788
2997.59,3.47789
3000.4,3.47789
3003.22,3.47789
3006.03,3.47789
3008.84,3.47789
3011.66,3.47789
3014.47,3.47789
3017.28,3.47789
3020.1,3.4779
3022.91,3.4779
3025.72,3.4779
3028.54,3.4779
3031.35,3.4779
3034.16,3.4779
3036.98,3.4779
3039.79,3.4779
3042.6,3.47791
3045.42,3.47791
3048.23,3.47791
3051.05,3.47791
3053.86,3.47791
3056.67,3.47791
3059.49,3.47791
3062.3,3.47792
3065.11,3.47792
3067.93,3.47792
3070.74,3.47792
3073.55,3.47792
3076.37,3.47792
3079.18,3.47792
3081.99,3.47792
3084.81,3.47793
3087.62,3.47793
3090.43,3.47793
3093.25,3.47793
3096.06,3.47793
3098.87,3.47793
3101.69,3.47793
3104.5,3.47793
3107.32,3.47794
3110.13,3.47794
3112.94,3.47794
3115.76,3.47794
3118.57,3.47794
3121.38,3.47794
3124.2,3.47794
3127.01,3.47795
3129.82,3.47795
3132.64,3.47795
3135.45,3.47795
3138.26,3.47795
3141.08,3.47795
3143.89,3.47795
3146.7,3.47796
3149.52,3.47796
3152.33,3.47796
3155.14,3.47796
3157.96,3.47796
3160.77,3.47796
3163.59,3.47796
3166.4,3.47796
3169.21,3.47797
3172.03,3.47797
3174.84,3.47797
3177.65,3.47797
3180.47,3.47797
3183.28,3.47797
3186.09,3.47797
3188.91,3.47798
3191.72,3.47798
3194.53,3.47798
3197.35,3.47798
3200.16,3.47798
3202.97,3.47798
3205.79,3.47798
3208.6,3.47799
3211.41,3.47799
3214.23,3.47799
3217.04,3.47799
3219.86,3.47799
3222.67,3.47799
3225.48,3.47799
3228.3,3.47799
3231.11,3.478
3233.92,3.478
3236.74,3.478
3239.55,3.478
3242.36,3.478
3245.18,3.478
3247.99,3.478
3250.8,3.47801
3253.62,3.47801
3256.43,3.47801
3259.24,3.47801
3262.06,3.47801
3264.87,3.47801
3267.68,3.47801
3270.5,3.47802
3273.31,3.47802
3276.13,3.47802
3278.94,3.47802
3281.75,3.47802
3284.57,3.47802
3287.38,3.47802
3290.19,3.47803
3293.01,3.47803
3295.82,3.47803
3298.63,3.47803
3301.45,3.47803
3304.26,3.47803
3307.07,3.47803
3309.89,3.47804
3312.7,3.47804
3315.51,3.47804
3318.33,3.47804
3321.14,3.47804
3323.95,3.47804
3326.77,3.47804
3329.58,3.47805
3332.4,3.47805
3335.21,3.47805
3338.02,3.47805
3340.84,3.47805
3343.65,3.47805
3346.46,3.47805
3349.28,3.47806
3352.09,3.47806
3354.9,3.47806
3357.72,3.47806
3360.53,3.47806
3363.34,3.47806
3366.16,3.47806
3368.97,3.47807
3371.78,3.47807
3374.6,3.47807
3377.41,3.47807
3380.23,3.47807
3383.04,3.47807
3385.85,3.47807
3388.67,3.47808
3391.48,3.47808
3394.29,3.47808
3397.11,3.47808
3399.92,3.47808
3402.73,3.47808
3405.55,3.47809
3408.36,3.47809
3411.17,3.47809
3413.99,3.47809
3416.8,3.47809
3419.61,3.47809
3422.43,3.47809
3425.24,3.4781
3428.05,3.4781
3430.87,3.4781
3433.68,3.4781
3436.5,3.4781
3439.31,3.4781
3442.12,3.4781
3444.94,3.47811
3447.75,3.47811
3450.56,3.47811
3453.38,3.47811
3456.19,3.47811
3459,3.47811
3461.82,3.47811
3464.63,3.47812
3467.44,3.47812
3470.26,3.47812
3473.07,3.47812
3475.88,3.47812
3478.7,3.47812
3481.51,3.47813
3484.32,3.47813
3487.14,3.47813
3489.95,3.47813
3492.77,3.47813
3495.58,3.47813
3498.39,3.47813
3501.21,3.47814
3504.02,3.47814
3506.83,3.47814
3509.65,3.47814
3512.46,3.47814
3515.27,3.47814
3518.09,3.47815
3520.9,3.47815
3523.71,3.47815
3526.53,3.47815
3529.34,3.47815
3532.15,3.47815
3534.97,3.47815
3537.78,3.47816
3540.59,3.47816
3543.41,3.47816
3546.22,3.47816
3549.04,3.47816
3551.85,3.47816
3554.66,3.47817
3557.48,3.47817
3560.29,3.47817
3563.1,3.47817
3565.92,3.47817
3568.73,3.47817
3571.54,3.47817
3574.36,3.47818
3577.17,3.47818
3579.98,3.47818
3582.8,3.47818
3585.61,3.47818
3588.42,3.47818
3591.24,3.47819
3594.05,3.47819
3596.86,3.47819
3599.68,3.47819
3602.49,3.47819
3605.31,3.47819
3608.12,3.47819
3610.93,3.4782
3613.75,3.4782
3616.56,3.4782
3619.37,3.4782
3622.19,3.4782
3625,3.4782
3627.81,3.47821
3630.63,3.47821
3633.44,3.47821
3636.25,3.47821
3639.07,3.47821
3641.88,3.47821
3644.69,3.47822
3647.51,3.47822
3650.32,3.47822
3653.14,3.47822
3655.95,3.47822
3658.76,3.47822
3661.58,3.47823
3664.39,3.47823
3667.2,3.47823
3670.02,3.47823
3672.83,3.47823
3675.64,3.47823
3678.46,3.47823
3681.27,3.47824
3684.08,3.47824
3686.9,3.47824
3689.71,3.47824
3692.52,3.47824
3695.34,3.47824
3698.15,3.47825
3700.96,3.47825
3703.78,3.47825
3706.59,3.47825
3709.41,3.47825
3712.22,3.47825
3715.03,3.47826
3717.85,3.47826
3720.66,3.47826
3723.47,3.47826
3726.29,3.47826
3729.1,3.47826
3731.91,3.47827
3734.73,3.47827
3737.54,3.47827
3740.35,3.47827
3743.17,3.47827
3745.98,3.47827
3748.79,3.47828
3751.61,3.47828
3754.42,3.47828
3757.23,3.47828
3760.05,3.47828
3762.86,3.47828
3765.68,3.47829
3768.49,3.47829
3771.3,3.47829
3774.12,3.47829
3776.93,3.47829
3779.74,3.47829
3782.56,3.4783
3785.37,3.4783
3788.18,3.4783
3791,3.4783
3793.81,3.4783
3796.62,3.4783
3799.44,3.47831
3802.25,3.47831
3805.06,3.47831
3807.88,3.47831
3810.69,3.47831
3813.5,3.47831
3816.32,3.47832
3819.13,3.47832
3821.95,3.47832
3824.76,3.47832
3827.57,3.47832
3830.39,3.47832
3833.2,3.47833
3836.01,3.47833
3838.83,3.47833
3841.64,3.47833
3844.45,3.47833
3847.27,3.47833
3850.08,3.47834
3852.89,3.47834
3855.71,3.47834
3858.52,3.47834
3861.33,3.47834
3864.15,3.47834
3866.96,3.47835
3869.77,3.47835
3872.59,3.47835
3875.4,3.47835
3878.22,3.47835
3881.03,3.47835
3883.84,3.47836
3886.66,3.47836
3889.47,3.47836
3892.28,3.47836
3895.1,3.47836
3897.91,3.47836
3900.72,3.47837
3903.54,3.47837
3906.35,3.47837
3909.16,3.47837
3911.98,3.47837
3914.79,3.47837
3917.6,3.47838
3920.42,3.47838
3923.23,3.47838
3926.05,3.47838
3928.86,3.47838
3931.67,3.47839
3934.49,3.47839
3937.3,3.47839
3940.11,3.47839
3942.93,3.47839
3945.74,3.47839
3948.55,3.4784
3951.37,3.4784
3954.18,3.4784
3956.99,3.4784
3959.81,3.4784
3962.62,3.4784
3965.43,3.47841
3968.25,3.47841
3971.06,3.47841
3973.87,3.47841
3976.69,3.47841
3979.5,3.47842
3982.32,3.47842
3985.13,3.47842
3987.94,3.47842
3990.76,3.47842
3993.57,3.47842
3996.38,3.47843
3999.2,3.47843
4002.01,3.47843
4004.82,3.47843
4007.64,3.47843
4010.45,3.47843
4013.26,3.47844
4016.08,3.47844
4018.89,3.47844
4021.7,3.47844
4024.52,3.47844
4027.33,3.47845
4030.14,3.47845
4032.96,3.47845
4035.77,3.47845
4038.59,3.47845
4041.4,3.47845
4044.21,3.47846
4047.03,3.47846
4049.84,3.47846
4052.65,3.47846
4055.47,3.47846
4058.28,3.47847
4061.09,3.47847
4063.91,3.47847
4066.72,3.47847
4069.53,3.47847
4072.35,3.47847
4075.16,3.47848
4077.97,3.47848
4080.79,3.47848
4083.6,3.47848
4086.41,3.47848
4089.23,3.47848
4092.04,3.47849
4094.86,3.47849
4097.67,3.47849
4100.48,3.47849
4103.3,3.47849
4106.11,3.4785
4108.92,3.4785
4111.74,3.4785
4114.55,3.4785
4117.36,3.4785
4120.18,3.47851
4122.99,3.47851
4125.8,3.47851
4128.62,3.47851
4131.43,3.47851
4134.24,3.47851
4137.06,3.47852
4139.87,3.47852
4142.68,3.47852
4145.5,3.47852
4148.31,3.47852
4151.13,3.47853
4153.94,3.47853
4156.75,3.47853
4159.57,3.47853
4162.38,3.47853
4165.19,3.47853
4168.01,3.47854
4170.82,3.47854
4173.63,3.47854
4176.45,3.47854
4179.26,3.47854
4182.07,3.47855
4184.89,3.47855
4187.7,3.47855
4190.51,3.47855
4193.33,3.47855
4196.14,3.47856
4198.95,3.47856
4201.77,3.47856
4204.58,3.47856
4207.4,3.47856
4210.21,3.47856
4213.02,3.47857
4215.84,3.47857
4218.65,3.47857
4221.46,3.47857
4224.28,3.47857
4227.09,3.47858
4229.9,3.47858
4232.72,3.47858
4235.53,3.47858
4238.34,3.47858
4241.16,3.47859
4243.97,3.47859
4246.78,3.47859
4249.6,3.47859
4252.41,3.47859
4255.23,3.47859
4258.04,3.4786
4260.85,3.4786
4263.67,3.4786
4266.48,3.4786
4269.29,3.4786
4272.11,3.47861
4274.92,3.47861
4277.73,3.47861
4280.55,3.47861
4283.36,3.47861
4286.17,3.47862
4288.99,3.47862
4291.8,3.47862
4294.61,3.47862
4297.43,3.47862
4300.24,3.47863
4303.05,3.47863
4305.87,3.47863
4308.68,3.47863
4311.5,3.47863
4314.31,3.47864
4317.12,3.47864
4319.94,3.47864
4322.75,3.47864
4325.56,3.47864
4328.38,3.47864
4331.19,3.47865
4334,3.47865
4336.82,3.47865
4339.63,3.47865
4342.44,3.47865
4345.26,3.47866
4348.07,3.47866
4350.88,3.47866
4353.7,3.47866
4356.51,3.47866
4359.32,3.47867
4362.14,3.47867
4364.95,3.47867
4367.77,3.47867
4370.58,3.47867
4373.39,3.47868
4376.21,3.47868
4379.02,3.47868
4381.83,3.47868
4384.65,3.47868
4387.46,3.47869
4390.27,3.47869
4393.09,3.47869
4395.9,3.47869
4398.71,3.47869
4401.53,3.4787
4404.34,3.4787
4407.15,3.4787
4409.97,3.4787
4412.78,3.4787
4415.59,3.47871
4418.41,3.47871
4421.22,3.47871
4424.04,3.47871
4426.85,3.47871
4429.66,3.47872
4432.48,3.47872
4435.29,3.47872
4438.1,3.47872
4440.92,3.47872
4443.73,3.47873
4446.54,3.47873
4449.36,3.47873
4452.17,3.47873
4454.98,3.47873
4457.8,3.47874
4460.61,3.47874
4463.42,3.47874
4466.24,3.47874
4469.05,3.47874
4471.86,3.47875
4474.68,3.47875
4477.49,3.47875
4480.31,3.47875
4483.12,3.47875
4485.93,3.47876
4488.75,3.47876
4491.56,3.47876
4494.37,3.47876
4497.19,3.47876
4500,3.47877
4502.81,3.47877
4505.63,3.47877
4508.44,3.47877
4511.25,3.47877
4514.07,3.47878
4516.88,3.47878
4519.69,3.47878
4522.51,3.47878
4525.32,3.47878
4528.14,3.47879
4530.95,3.47879
4533.76,3.47879
4536.58,3.47879
4539.39,3.4788
4542.2,3.4788
4545.02,3.4788
4547.83,3.4788
4550.64,3.4788
4553.46,3.47881
4556.27,3.47881
4559.08,3.47881
4561.9,3.47881
4564.71,3.47881
4567.52,3.47882
4570.34,3.47882
4573.15,3.47882
4575.96,3.47882
4578.78,3.47882
4581.59,3.47883
4584.41,3.47883
4587.22,3.47883
4590.03,3.47883
4592.85,3.47883
4595.66,3.47884
4598.47,3.47884
4601.29,3.47884
4604.1,3.47884
4606.91,3.47884
4609.73,3.47885
4612.54,3.47885
4615.35,3.47885
4618.17,3.47885
4620.98,3.47886
4623.79,3.47886
4626.61,3.47886
4629.42,3.47886
4632.23,3.47886
4635.05,3.47887
4637.86,3.47887
4640.68,3.47887
4643.49,3.47887
4646.3,3.47887
4649.12,3.47888
4651.93,3.47888
4654.74,3.47888
4657.56,3.47888
4660.37,3.47889
4663.18,3.47889
4666,3.47889
4668.81,3.47889
4671.62,3.47889
4674.44,3.4789
4677.25,3.4789
4680.06,3.4789
4682.88,3.4789
4685.69,3.4789
4688.5,3.47891
4691.32,3.47891
4694.13,3.47891
4696.95,3.47891
4699.76,3.47892
4702.57,3.47892
4705.39,3.47892
4708.2,3.47892
4711.01,3.47892
4713.83,3.47893
4716.64,3.47893
4719.45,3.47893
4722.27,3.47893
4725.08,3.47893
4727.89,3.47894
4730.71,3.47894
4733.52,3.47894
4736.33,3.47894
4739.15,3.47895
4741.96,3.47895
4744.77,3.47895
4747.59,3.47895
4750.4,3.47895
4753.22,3.47896
4756.03,3.47896
4758.84,3.47896
4761.66,3.47896
4764.47,3.47896
4767.28,3.47897
4770.1,3.47897
4772.91,3.47897
4775.72,3.47897
4778.54,3.47898
4781.35,3.47898
4784.16,3.47898
4786.98,3.47898
4789.79,3.47898
4792.6,3.47899
4795.42,3.47899
4798.23,3.47899
4801.05,3.47899
4803.86,3.479
4806.67,3.479
4809.49,3.479
4812.3,3.479
4815.11,3.479
4817.93,3.47901
4820.74,3.47901
4823.55,3.47901
4826.37,3.47901
4829.18,3.47902
4831.99,3.47902
4834.81,3.47902
4837.62,3.47902
4840.43,3.47902
4843.25,3.47903
4846.06,3.47903
4848.87,3.47903
4851.69,3.47903
4854.5,3.47904
4857.32,3.47904
4860.13,3.47904
4862.94,3.47904
4865.76,3.47904
4868.57,3.47905
4871.38,3.47905
4874.2,3.47905
4877.01,3.47905
4879.82,3.47906
4882.64,3.47906
4885.45,3.47906
4888.26,3.47906
4891.08,3.47906
4893.89,3.47907
4896.7,3.47907
4899.52,3.47907
4902.33,3.47907
4905.14,3.47908
4907.96,3.47908
4910.77,3.47908
4913.59,3.47908
4916.4,3.47909
4919.21,3.47909
4922.03,3.47909
4924.84,3.47909
4927.65,3.47909
4930.47,3.4791
4933.28,3.4791
4936.09,3.4791
4938.91,3.4791
4941.72,3.47911
4944.53,3.47911
4947.35,3.47911
4950.16,3.47911
4952.97,3.47911
4955.79,3.47912
4958.6,3.47912
4961.41,3.47912
4964.23,3.47912
4967.04,3.47913
4969.86,3.47913
4972.67,3.47913
4975.48,3.47913
4978.3,3.47914
4981.11,3.47914
4983.92,3.47914
4986.74,3.47914
4989.55,3.47914
4992.36,3.47915
4995.18,3.47915
4997.99,3.47915
5000.8,3.47915
5003.62,3.47916
5006.43,3.47916
5009.24,3.47916
5012.06,3.47916
5014.87,3.47917
5017.68,3.47917
5020.5,3.47917
5023.31,3.47917
5026.13,3.47918
5028.94,3.47918
5031.75,3.47918
5034.57,3.47918
5037.38,3.47918
5040.19,3.47919
5043.01,3.47919
5045.82,3.47919
5048.63,3.47919
5051.45,3.4792
5054.26,3.4792
5057.07,3.4792
5059.89,3.4792
5062.7,3.47921
5065.51,3.47921
5068.33,3.47921
5071.14,3.47921
5073.95,3.47922
5076.77,3.47922
5079.58,3.47922
5082.4,3.47922
5085.21,3.47922
5088.02,3.47923
5090.84,3.47923
5093.65,3.47923
5096.46,3.47923
5099.28,3.47924
5102.09,3.47924
5104.9,3.47924
5107.72,3.47924
5110.53,3.47925
5113.34,3.47925
5116.16,3.47925
5118.97,3.47925
5121.78,3.47926
5124.6,3.47926
5127.41,3.47926
5130.23,3.47926
5133.04,3.47927
5135.85,3.47927
5138.67,3.47927
5141.48,3.47927
5144.29,3.47927
5147.11,3.47928
5149.92,3.47928
5152.73,3.47928
5155.55,3.47928
5158.36,3.47929
5161.17,3.47929
5163.99,3.47929
5166.8,3.47929
5169.61,3.4793
5172.43,3.4793
5175.24,3.4793
5178.05,3.4793
5180.87,3.47931
5183.68,3.47931
5186.5,3.47931
5189.31,3.47931
5192.12,3.47932
5194.94,3.47932
5197.75,3.47932
5200.56,3.47932
5203.38,3.47933
5206.19,3.47933
5209,3.47933
5211.82,3.47933
5214.63,3.47934
5217.44,3.47934
5220.26,3.47934
5223.07,3.47934
5225.88,3.47935
5228.7,3.47935
5231.51,3.47935
5234.32,3.47935
5237.14,3.47936
5239.95,3.47936
5242.77,3.47936
5245.58,3.47936
5248.39,3.47936
5251.21,3.47937
5254.02,3.47937
5256.83,3.47937
5259.65,3.47937
5262.46,3.47938
5265.27,3.47938
5268.09,3.47938
5270.9,3.47938
5273.71,3.47939
5276.53,3.47939
5279.34,3.47939
5282.15,3.47939
5284.97,3.4794
5287.78,3.4794
5290.59,3.4794
5293.41,3.4794
5296.22,3.47941
5299.04,3.47941
5301.85,3.47941
5304.66,3.47941
5307.48,3.47942
5310.29,3.47942
5313.1,3.47942
5315.92,3.47942
5318.73,3.47943
5321.54,3.47943
5324.36,3.47943
5327.17,3.47943
5329.98,3.47944
5332.8,3.47944
5335.61,3.47944
5338.42,3.47944
5341.24,3.47945
5344.05,3.47945
5346.86,3.47945
5349.68,3.47945
5352.49,3.47946
5355.31,3.47946
5358.12,3.47946
5360.93,3.47947
5363.75,3.47947
5366.56,3.47947
5369.37,3.47947
5372.19,3.47948
5375,3.47948
5377.81,3.47948
5380.63,3.47948
5383.44,3.47949
5386.25,3.47949
5389.07,3.47949
5391.88,3.47949
5394.69,3.4795
5397.51,3.4795
5400.32,3.4795
5403.14,3.4795
5405.95,3.47951
5408.76,3.47951
5411.58,3.47951
5414.39,3.47951
5417.2,3.47952
5420.02,3.47952
5422.83,3.47952
5425.64,3.47952
5428.46,3.47953
5431.27,3.47953
5434.08,3.47953
5436.9,3.47953
5439.71,3.47954
5442.52,3.47954
5445.34,3.47954
5448.15,3.47954
5450.96,3.47955
5453.78,3.47955
5456.59,3.47955
5459.41,3.47956
5462.22,3.47956
5465.03,3.47956
5467.85,3.47956
5470.66,3.47957
5473.47,3.47957
5476.29,3.47957
5479.1,3.47957
5481.91,3.47958
5484.73,3.47958
5487.54,3.47958
5490.35,3.47958
5493.17,3.47959
5495.98,3.47959
5498.79,3.47959
5501.61,3.47959
5504.42,3.4796
5507.23,3.4796
5510.05,3.4796
5512.86,3.4796
5515.68,3.47961
5518.49,3.47961
5521.3,3.47961
5524.12,3.47962
5526.93,3.47962
5529.74,3.47962
5532.56,3.47962
5535.37,3.47963
5538.18,3.47963
5541,3.47963
5543.81,3.47963
5546.62,3.47964
5549.44,3.47964
5552.25,3.47964
5555.06,3.47964
5557.88,3.47965
5560.69,3.47965
5563.5,3.47965
5566.32,3.47966
5569.13,3.47966
5571.95,3.47966
5574.76,3.47966
5577.57,3.47967
5580.39,3.47967
5583.2,3.47967
5586.01,3.47967
5588.83,3.47968
5591.64,3.47968
5594.45,3.47968
5597.27,3.47968
5600.08,3.47969
5602.89,3.47969
5605.71,3.47969
5608.52,3.4797
5611.33,3.4797
5614.15,3.4797
5616.96,3.4797
5619.77,3.47971
5622.59,3.47971
5625.4,3.47971
5628.22,3.47971
5631.03,3.47972
5633.84,3.47972
5636.66,3.47972
5639.47,3.47973
5642.28,3.47973
5645.1,3.47973
5647.91,3.47973
5650.72,3.47974
5653.54,3.47974
5656.35,3.47974
5659.16,3.47974
5661.98,3.47975
5664.79,3.47975
5667.6,3.47975
5670.42,3.47976
5673.23,3.47976
5676.05,3.47976
5678.86,3.47976
5681.67,3.47977
5684.49,3.47977
5687.3,3.47977
5690.11,3.47977
5692.93,3.47978
5695.74,3.47978
5698.55,3.47978
5701.37,3.47979
5704.18,3.47979
5706.99,3.47979
5709.81,3.47979
5712.62,3.4798
5715.43,3.4798
5718.25,3.4798
5721.06,3.4798
5723.87,3.47981
5726.69,3.47981
5729.5,3.47981
5732.32,3.47982
5735.13,3.47982
5737.94,3.47982
5740.76,3.47982
5743.57,3.47983
5746.38,3.47983
5749.2,3.47983
5752.01,3.47984
5754.82,3.47984
5757.64,3.47984
5760.45,3.47984
5763.26,3.47985
5766.08,3.47985
5768.89,3.47985
5771.7,3.47985
5774.52,3.47986
5777.33,3.47986
5780.14,3.47986
5782.96,3.47987
5785.77,3.47987
5788.59,3.47987
5791.4,3.47987
5794.21,3.47988
5797.03,3.47988
5799.84,3.47988
5802.65,3.47989
5805.47,3.47989
5808.28,3.47989
5811.09,3.47989
5813.91,3.4799
5816.72,3.4799
5819.53,3.4799
5822.35,3.47991
5825.16,3.47991
5827.97,3.47991
5830.79,3.47991
5833.6,3.47992
5836.41,3.47992
5839.23,3.47992
5842.04,3.47993
5844.86,3.47993
5847.67,3.47993
5850.48,3.47993
5853.3,3.47994
5856.11,3.47994
5858.92,3.47994
5861.74,3.47995
5864.55,3.47995
5867.36,3.47995
5870.18,3.47995
5872.99,3.47996
5875.8,3.47996
5878.62,3.47996
5881.43,3.47997
5884.24,3.47997
5887.06,3.47997
5889.87,3.47997
5892.68,3.47998
5895.5,3.47998
5898.31,3.47998
5901.13,3.47999
5903.94,3.47999
5906.75,3.47999
5909.57,3.47999
5912.38,3.48
5915.19,3.48
5918.01,3.48
5920.82,3.48001
5923.63,3.48001
5926.45,3.48001
5929.26,3.48001
5932.07,3.48002
5934.89,3.48002
5937.7,3.48002
5940.51,3.48003
5943.33,3.48003
5946.14,3.48003
5948.95,3.48003
5951.77,3.48004
5954.58,3.48004
5957.4,3.48004
5960.21,3.48005
5963.02,3.48005
5965.84,3.48005
5968.65,3.48006
5971.46,3.48006
5974.28,3.48006
5977.09,3.48006
5979.9,3.48007
5982.72,3.48007
5985.53,3.48007
5988.34,3.48008
5991.16,3.48008
5993.97,3.48008
5996.78,3.48008
5999.6,3.48009
6002.41,3.48009
6005.23,3.48009
6008.04,3.4801
6010.85,3.4801
6013.67,3.4801
6016.48,3.48011
6019.29,3.48011
6022.11,3.48011
6024.92,3.48011
6027.73,3.48012
6030.55,3.48012
6033.36,3.48012
6036.17,3.48013
6038.99,3.48013
6041.8,3.48013
6044.61,3.48014
6047.43,3.48014
6050.24,3.48014
6053.05,3.48014
6055.87,3.48015
6058.68,3.48015
6061.5,3.48015
6064.31,3.48016
6067.12,3.48016
6069.94,3.48016
6072.75,3.48017
6075.56,3.48017
6078.38,3.48017
6081.19,3.48017
6084,3.48018
6086.82,3.48018
6089.63,3.48018
6092.44,3.48019
6095.26,3.48019
6098.07,3.48019
6100.88,3.4802
6103.7,3.4802
6106.51,3.4802
6109.32,3.4802
6112.14,3.48021
6114.95,3.48021
6117.77,3.48021
6120.58,3.48022
6123.39,3.48022
6126.21,3.48022
6129.02,3.48023
6131.83,3.48023
6134.65,3.48023
6137.46,3.48023
6140.27,3.48024
6143.09,3.48024
6145.9,3.48024
6148.71,3.48025
6151.53,3.48025
6154.34,3.48025
6157.15,3.48026
6159.97,3.48026
6162.78,3.48026
6165.59,3.48027
6168.41,3.48027
6171.22,3.48027
6174.04,3.48027
6176.85,3.48028
6179.66,3.48028
6182.48,3.48028
6185.29,3.48029
6188.1,3.48029
6190.92,3.48029
6193.73,3.4803
6196.54,3.4803
6199.36,3.4803
6202.17,3.48031
6204.98,3.48031
6207.8,3.48031
6210.61,3.48031
6213.42,3.48032
6216.24,3.48032
6219.05,3.48032
6221.86,3.48033
6224.68,3.48033
6227.49,3.48033
6230.31,3.48034
6233.12,3.48034
6235.93,3.48034
6238.75,3.48035
6241.56,3.48035
6244.37,3.48035
6247.19,3.48036
6250,3.48036
6252.81,3.48036
6255.63,3.48036
6258.44,3.48037
6261.25,3.48037
6264.07,3.48037
6266.88,3.48038
6269.69,3.48038
6272.51,3.48038
6275.32,3.48039
6278.14,3.48039
6280.95,3.48039
6283.76,3.4804
6286.58,3.4804
6289.39,3.4804
6292.2,3.48041
6295.02,3.48041
6297.83,3.48041
6300.64,3.48041
6303.46,3.48042
6306.27,3.48042
6309.08,3.48042
6311.9,3.48043
6314.71,3.48043
6317.52,3.48043
6320.34,3.48044
6323.15,3.48044
6325.96,3.48044
6328.78,3.48045
6331.59,3.48045
6334.41,3.48045
6337.22,3.48046
6340.03,3.48046
6342.85,3.48046
6345.66,3.48047
6348.47,3.48047
6351.29,3.48047
6354.1,3.48048
6356.91,3.48048
6359.73,3.48048
6362.54,3.48049
6365.35,3.48049
6368.17,3.48049
6370.98,3.48049
6373.79,3.4805
6376.61,3.4805
6379.42,3.4805
6382.23,3.48051
6385.05,3.48051
6387.86,3.48051
6390.68,3.48052
6393.49,3.48052
6396.3,3.48052
6399.12,3.48053
6401.93,3.48053
6404.74,3.48053
6407.56,3.48054
6410.37,3.48054
6413.18,3.48054
6416,3.48055
6418.81,3.48055
6421.62,3.48055
6424.44,3.48056
6427.25,3.48056
6430.06,3.48056
6432.88,3.48057
6435.69,3.48057
6438.5,3.48057
6441.32,3.48058
6444.13,3.48058
6446.95,3.48058
6449.76,3.48059
6452.57,3.48059
6455.39,3.48059
6458.2,3.4806
6461.01,3.4806
6463.83,3.4806
6466.64,3.48061
6469.45,3.48061
6472.27,3.48061
6475.08,3.48062
6477.89,3.48062
6480.71,3.48062
6483.52,3.48062
6486.33,3.48063
6489.15,3.48063
6491.96,3.48063
6494.77,3.48064
6497.59,3.48064
6500.4,3.48064
6503.22,3.48065
6506.03,3.48065
6508.84,3.48065
6511.66,3.48066
6514.47,3.48066
6517.28,3.48066
6520.1,3.48067
6522.91,3.48067
6525.72,3.48067
6528.54,3.48068
6531.35,3.48068
6534.16,3.48068
6536.98,3.48069
6539.79,3.48069
6542.6,3.48069
6545.42,3.4807
6548.23,3.4807
6551.05,3.4807
6553.86,3.48071
6556.67,3.48071
6559.49,3.48071
6562.3,3.48072
6565.11,3.48072
6567.93,3.48072
6570.74,3.48073
6573.55,3.48073
6576.37,3.48073
6579.18,3.48074
6581.99,3.48074
6584.81,3.48075
6587.62,3.48075
6590.43,3.48075
6593.25,3.48076
6596.06,3.48076
6598.87,3.48076
6601.69,3.48077
6604.5,3.48077
6607.32,3.48077
6610.13,3.48078
6612.94,3.48078
6615.76,3.48078
6618.57,3.48079
6621.38,3.48079
6624.2,3.48079
6627.01,3.4808
6629.82,3.4808
6632.64,3.4808
6635.45,3.48081
6638.26,3.48081
6641.08,3.48081
6643.89,3.48082
6646.7,3.48082
6649.52,3.48082
6652.33,3.48083
6655.14,3.48083
6657.96,3.48083
6660.77,3.48084
6663.59,3.48084
6666.4,3.48084
6669.21,3.48085
6672.03,3.48085
6674.84,3.48085
6677.65,3.48086
6680.47,3.48086
6683.28,3.48086
6686.09,3.48087
6688.91,3.48087
6691.72,3.48087
6694.53,3.48088
6697.35,3.48088
6700.16,3.48089
6702.97,3.48089
6705.79,3.48089
6708.6,3.4809
6711.41,3.4809
6714.23,3.4809
6717.04,3.48091
6719.86,3.48091
6722.67,3.48091
6725.48,3.48092
6728.3,3.48092
6731.11,3.48092
6733.92,3.48093
6736.74,3.48093
6739.55,3.48093
6742.36,3.48094
6745.18,3.48094
6747.99,3.48094
6750.8,3.48095
6753.62,3.48095
6756.43,3.48095
6759.24,3.48096
6762.06,3.48096
6764.87,3.48097
6767.68,3.48097
6770.5,3.48097
6773.31,3.48098
6776.13,3.48098
6778.94,3.48098
6781.75,3.48099
6784.57,3.48099
6787.38,3.48099
6790.19,3.481
6793.01,3.481
6795.82,3.481
6798.63,3.48101
6801.45,3.48101
6804.26,3.48101
6807.07,3.48102
6809.89,3.48102
6812.7,3.48103
6815.51,3.48103
6818.33,3.48103
6821.14,3.48104
6823.95,3.48104
6826.77,3.48104
6829.58,3.48105
6832.4,3.48105
6835.21,3.48105
6838.02,3.48106
6840.84,3.48106
6843.65,3.48106
6846.46,3.48107
6849.28,3.48107
6852.09,3.48108
6854.9,3.48108
6857.72,3.48108
6860.53,3.48109
6863.34,3.48109
6866.16,3.48109
6868.97,3.4811
6871.78,3.4811
6874.6,3.4811
6877.41,3.48111
6880.23,3.48111
6883.04,3.48112
6885.85,3.48112
6888.67,3.48112
6891.48,3.48113
6894.29,3.48113
6897.11,3.48113
6899.92,3.48114
6902.73,3.48114
6905.55,3.48114
6908.36,3.48115
6911.17,3.48115
6913.99,3.48115
6916.8,3.48116
6919.61,3.48116
6922.43,3.48117
6925.24,3.48117
6928.05,3.48117
6930.87,3.48118
6933.68,3.48118
6936.5,3.48118
6939.31,3.48119
6942.12,3.48119
6944.94,3.48119
6947.75,3.4812
6950.56,3.4812
6953.38,3.48121
6956.19,3.48121
6959,3.48121
6961.82,3.48122
6964.63,3.48122
6967.44,3.48122
6970.26,3.48123
6973.07,3.48123
6975.88,3.48124
6978.7,3.48124
6981.51,3.48124
6984.32,3.48125
6987.14,3.48125
6989.95,3.48125
6992.77,3.48126
6995.58,3.48126
6998.39,3.48126
7001.21,3.48127
7004.02,3.48127
7006.83,3.48128
7009.65,3.48128
7012.46,3.48128
7015.27,3.48129
7018.09,3.48129
7020.9,3.48129
7023.71,3.4813
7026.53,3.4813
7029.34,3.48131
7032.15,3.48131
7034.97,3.48131
7037.78,3.48132
7040.59,3.48132
7043.41,3.48132
7046.22,3.48133
7049.04,3.48133
7051.85,3.48134
7054.66,3.48134
7057.48,3.48134
7060.29,3.48135
7063.1,3.48135
7065.92,3.48135
7068.73,3.48136
7071.54,3.48136
7074.36,3.48137
7077.17,3.48137
7079.98,3.48137
7082.8,3.48138
7085.61,3.48138
7088.42,3.48138
7091.24,3.48139
7094.05,3.48139
7096.86,3.4814
7099.68,3.4814
7102.49,3.4814
7105.31,3.48141
7108.12,3.48141
7110.93,3.48141
7113.75,3.48142
7116.56,3.48142
7119.37,3.48143
7122.19,3.48143
7125,3.48143
7127.81,3.48144
7130.63,3.48144
7133.44,3.48145
7136.25,3.48145
7139.07,3.48145
7141.88,3.48146
7144.69,3.48146
7147.51,3.48146
7150.32,3.48147
7153.14,3.48147
7155.95,3.48148
7158.76,3.48148
7161.58,3.48148
7164.39,3.48149
7167.2,3.48149
7170.02,3.48149
7172.83,3.4815
7175.64,3.4815
7178.46,3.48151
7181.27,3.48151
7184.08,3.48151
7186.9,3.48152
7189.71,3.48152
7192.52,3.48153
7195.34,3.48153
7198.15,3.48153
7200.96,3.48154
7203.78,3.48154
7206.59,3.48155
7209.41,3.48155
7212.22,3.48155
7215.03,3.48156
7217.85,3.48156
7220.66,3.48156
7223.47,3.48157
7226.29,3.48157
7229.1,3.48158
7231.91,3.48158
7234.73,3.48158
7237.54,3.48159
7240.35,3.48159
7243.17,3.4816
7245.98,3.4816
7248.79,3.4816
7251.61,3.48161
7254.42,3.48161
7257.23,3.48162
7260.05,3.48162
7262.86,3.48162
7265.68,3.48163
7268.49,3.48163
7271.3,3.48163
7274.12,3.48164
7276.93,3.48164
7279.74,3.48165
7282.56,3.48165
7285.37,3.48165
7288.18,3.48166
7291,3.48166
7293.81,3.48167
7296.62,3.48167
7299.44,3.48167
7302.25,3.48168
7305.06,3.48168
7307.88,3.48169
7310.69,3.48169
7313.5,3.48169
7316.32,3.4817
7319.13,3.4817
7321.95,3.48171
7324.76,3.48171
7327.57,3.48171
7330.39,3.48172
7333.2,3.48172
7336.01,3.48173
7338.83,3.48173
7341.64,3.48173
7344.45,3.48174
7347.27,3.48174
7350.08,3.48175
7352.89,3.48175
7355.71,3.48175
7358.52,3.48176
7361.33,3.48176
7364.15,3.48177
7366.96,3.48177
7369.77,3.48177
7372.59,3.48178
7375.4,3.48178
7378.22,3.48179
7381.03,3.48179
7383.84,3.48179
7386.66,3.4818
7389.47,3.4818
7392.28,3.48181
7395.1,3.48181
7397.91,3.48181
7400.72,3.48182
7403.54,3.48182
7406.35,3.48183
7409.16,3.48183
7411.98,3.48183
7414.79,3.48184
7417.6,3.48184
7420.42,3.48185
7423.23,3.48185
7426.05,3.48185
7428.86,3.48186
7431.67,3.48186
7434.49,3.48187
7437.3,3.48187
7440.11,3.48188
7442.93,3.48188
7445.74,3.48188
7448.55,3.48189
7451.37,3.48189
7454.18,3.4819
7456.99,3.4819
7459.81,3.4819
7462.62,3.48191
7465.43,3.48191
7468.25,3.48192
7471.06,3.48192
7473.87,3.48192
7476.69,3.48193
7479.5,3.48193
7482.32,3.48194
7485.13,3.48194
7487.94,3.48194
7490.76,3.48195
7493.57,3.48195
7496.38,3.48196
7499.2,3.48196
7502.01,3.48197
7504.82,3.48197
7507.64,3.48197
7510.45,3.48198
7513.26,3.48198
7516.08,3.48199
7518.89,3.48199
7521.7,3.48199
7524.52,3.482
7527.33,3.482
7530.14,3.48201
7532.96,3.48201
7535.77,3.48202
7538.59,3.48202
7541.4,3.48202
7544.21,3.48203
7547.03,3.48203
7549.84,3.48204
7552.65,3.48204
7555.47,3.48204
7558.28,3.48205
7561.09,3.48205
7563.91,3.48206
7566.72,3.48206
7569.53,3.48207
7572.35,3.48207
7575.16,3.48207
7577.97,3.48208
7580.79,3.48208
7583.6,3.48209
7586.41,3.48209
7589.23,3.48209
7592.04,3.4821
7594.86,3.4821
7597.67,3.48211
7600.48,3.48211
7603.3,3.48212
7606.11,3.48212
7608.92,3.48212
7611.74,3.48213
7614.55,3.48213
7617.36,3.48214
7620.18,3.48214
7622.99,3.48215
7625.8,3.48215
7628.62,3.48215
7631.43,3.48216
7634.24,3.48216
7637.06,3.48217
7639.87,3.48217
7642.68,3.48218
7645.5,3.48218
7648.31,3.48218
7651.13,3.48219
7653.94,3.48219
7656.75,3.4822
7659.57,3.4822
7662.38,3.48221
7665.19,3.48221
7668.01,3.48221
7670.82,3.48222
7673.63,3.48222
7676.45,3.48223
7679.26,3.48223
7682.07,3.48224
7684.89,3.48224
7687.7,3.48224
7690.51,3.48225
7693.33,3.48225
7696.14,3.48226
7698.95,3.48226
7701.77,3.48227
7704.58,3.48227
7707.4,3.48227
7710.21,3.48228
7713.02,3.48228
7715.84,3.48229
7718.65,3.48229
7721.46,3.4823
7724.28,3.4823
7727.09,3.4823
7729.9,3.48231
7732.72,3.48231
7735.53,3.48232
7738.34,3.48232
7741.16,3.48233
7743.97,3.48233
7746.78,3.48233
7749.6,3.48234
7752.41,3.48234
7755.23,3.48235
7758.04,3.48235
7760.85,3.48236
7763.67,3.48236
7766.48,3.48237
7769.29,3.48237
7772.11,3.48237
7774.92,3.48238
7777.73,3.48238
7780.55,3.48239
7783.36,3.48239
7786.17,3.4824
7788.99,3.4824
7791.8,3.4824
7794.61,3.48241
7797.43,3.48241
7800.24,3.48242
7803.05,3.48242
7805.87,3.48243
7808.68,3.48243
7811.5,3.48244
7814.31,3.48244
7817.12,3.48244
7819.94,3.48245
7822.75,3.48245
7825.56,3.48246
7828.38,3.48246
7831.19,3.48247
7834,3.48247
7836.82,3.48248
7839.63,3.48248
7842.44,3.48248
7845.26,3.48249
7848.07,3.48249
7850.88,3.4825
7853.7,3.4825
7856.51,3.48251
7859.32,3.48251
7862.14,3.48252
7864.95,3.48252
7867.77,3.48252
7870.58,3.48253
7873.39,3.48253
7876.21,3.48254
7879.02,3.48254
7881.83,3.48255
7884.65,3.48255
7887.46,3.48256
7890.27,3.48256
7893.09,3.48257
7895.9,3.48257
7898.71,3.48257
7901.53,3.48258
7904.34,3.48258
7907.15,3.48259
7909.97,3.48259
7912.78,3.4826
7915.59,3.4826
7918.41,3.48261
7921.22,3.48261
7924.04,3.48262
7926.85,3.48262
7929.66,3.48262
7932.48,3.48263
7935.29,3.48263
7938.1,3.48264
7940.92,3.48264
7943.73,3.48265
7946.54,3.48265
7949.36,3.48266
7952.17,3.48266
7954.98,3.48267
7957.8,3.48267
7960.61,3.48267
7963.42,3.48268
7966.24,3.48268
7969.05,3.48269
7971.86,3.48269
7974.68,3.4827
7977.49,3.4827
7980.31,3.48271
7983.12,3.48271
7985.93,3.48272
7988.75,3.48272
7991.56,3.48272
7994.37,3.48273
7997.19,3.48273
8000,3.48274
